Folder: tools/assets/images/central_banks

Note: README.md
Note sure exactly what I am meant to add here.

File: tga.csv
observation_date,WTREGEN
2010-11-24,29391.000
2010-12-15,30093.000
2011-01-05,115386.000
2011-01-26,91704.000
2011-02-16,46423.000
2011-03-09,35841.000
2011-03-30,58515.000
2011-04-20,73268.000
2011-05-11,99593.000
2011-06-01,65992.000
2011-06-22,122935.000
2011-07-13,50339.000
2011-08-03,56911.000
2011-08-24,20782.000
2011-09-14,13766.000
2011-10-05,43655.000
2011-10-26,64369.000
2011-11-16,29786.000
2011-12-07,28282.000
2011-12-28,98652.000
2012-01-18,78069.000
2012-02-08,87962.000
2012-02-29,39475.000
2012-03-21,102488.000
2012-04-11,45289.000
2012-05-02,120748.000
2012-05-23,90083.000
2012-06-13,41885.000
2012-07-04,100829.000
2012-07-25,45537.000
2012-08-15,28398.000
2012-09-05,30048.000
2012-09-26,73239.000
2012-10-17,58473.000
2012-11-07,28002.000
2012-11-28,27904.000
2012-12-19,54986.000
2013-01-09,59644.000
2013-01-30,71127.000
2013-02-20,24877.000
2013-03-13,43000.000
2013-04-03,76144.000
2013-04-24,128700.000
2013-05-15,89999.000
2013-06-05,30230.000
2013-06-26,97212.000
2013-07-17,70158.000
2013-08-07,60845.000
2013-08-28,37298.000
2013-09-18,48099.000
2013-10-09,28728.000
2013-10-30,31806.000
2013-11-20,49446.000
2013-12-11,28992.000
2014-01-01,105104.000
2014-01-22,77798.000
2014-02-12,36410.000
2014-03-05,45394.000
2014-03-26,102040.000
2014-04-16,65457.000
2014-05-07,91397.000
2014-05-28,33573.000
2014-06-18,84475.000
2014-07-09,63826.000
2014-07-30,62335.000
2014-08-20,42803.000
2014-09-10,39081.000
2014-10-01,119237.000
2014-10-22,123514.000
2014-11-12,107205.000
2014-12-03,87426.000
2014-12-24,175093.000
2015-01-14,158268.000
2015-02-04,167272.000
2015-02-25,68114.000
2015-03-18,60686.000
2015-04-08,55206.000
2015-04-29,219702.000
2015-05-20,181641.000
2015-06-10,178468.000
2015-07-01,227457.000
2015-07-22,194772.000
2015-08-12,196323.000
2015-09-02,120354.000
2015-09-23,153512.000
2015-10-14,66439.000
2015-11-04,29795.000
2015-11-25,163491.000
2015-12-16,196343.000
2016-01-06,333220.000
2016-01-27,341996.000
2016-02-17,266760.000
2016-03-09,211443.000
2016-03-30,284660.000
2016-04-20,268785.000
2016-05-11,315369.000
2016-06-01,267948.000
2016-06-22,316838.000
2016-07-13,316064.000
2016-08-03,298813.000
2016-08-24,254376.000
2016-09-14,243082.000
2016-10-05,347760.000
2016-10-26,429027.000
2016-11-16,400625.000
2016-12-07,343355.000
2016-12-28,380679.000
2017-01-18,366090.000
2017-02-08,305735.000
2017-03-01,175496.000
2017-03-22,70827.000
2017-04-12,122218.000
2017-05-03,244655.000
2017-05-24,167165.000
2017-06-14,153646.000
2017-07-05,177006.000
2017-07-26,191404.000
2017-08-16,130954.000
2017-09-06,37563.000
2017-09-27,164652.000
2017-10-18,178974.000
2017-11-08,177780.000
2017-11-29,172282.000
2017-12-20,155612.000
2018-01-10,206215.000
2018-01-31,270244.000
2018-02-21,214677.000
2018-03-14,249929.000
2018-04-04,303916.000
2018-04-25,359599.000
2018-05-16,337258.000
2018-06-06,294069.000
2018-06-27,373940.000
2018-07-18,324457.000
2018-08-08,326471.000
2018-08-29,342543.000
2018-09-19,335878.000
2018-10-10,324721.000
2018-10-31,373368.000
2018-11-21,330202.000
2018-12-12,334967.000
2019-01-02,379902.000
2019-01-23,389626.000
2019-02-13,359109.000
2019-03-06,220045.000
2019-03-27,310868.000
2019-04-17,285264.000
2019-05-08,348357.000
2019-05-29,247777.000
2019-06-19,198398.000
2019-07-10,211115.000
2019-07-31,163763.000
2019-08-21,125725.000
2019-09-11,185342.000
2019-10-02,335171.000
2019-10-23,377985.000
2019-11-13,381955.000
2019-12-04,346971.000
2019-12-25,367820.000
2020-01-15,350987.000
2020-02-05,413322.000
2020-02-26,439365.000
2020-03-18,362576.000
2020-04-08,698578.000
2020-04-29,997507.000
2020-05-20,1194410.000
2020-06-10,1506558.000
2020-07-01,1657620.000
2020-07-22,1804944.000
2020-08-12,1669733.000
2020-09-02,1639159.000
2020-09-23,1680688.000
2020-10-14,1680998.000
2020-11-04,1621346.000
2020-11-25,1517215.000
2020-12-16,1529698.000
2021-01-06,1669327.000
2021-01-27,1633540.000
2021-02-17,1567041.000
2021-03-10,1360064.000
2021-03-31,1025727.000
2021-04-21,1015902.000
2021-05-12,898779.000
2021-06-02,783235.000
2021-06-23,734689.000
2021-07-14,704918.000
2021-08-04,492668.000
2021-08-25,301430.000
2021-09-15,230328.000
2021-10-06,135582.000
2021-10-27,213291.000
2021-11-17,211453.000
2021-12-08,115117.000
2021-12-29,211849.000
2022-01-19,488697.000
2022-02-09,686384.000
2022-03-02,682903.000
2022-03-23,614616.000
2022-04-13,547308.000
2022-05-04,945478.000
2022-05-25,821535.000
2022-06-15,656870.000
2022-07-06,700457.000
2022-07-27,602945.000
2022-08-17,545321.000
2022-09-07,581295.000
2022-09-28,689569.000
2022-10-19,607199.000
2022-11-09,527479.000
2022-11-30,511474.000
2022-12-21,459780.000
2023-01-11,372340.000
2023-02-01,560089.000
2023-02-22,477333.000
2023-03-15,232866.000
2023-04-05,168793.000
2023-04-26,291702.000
2023-05-17,116220.000
2023-06-07,44756.000
2023-06-28,390571.000
2023-07-19,531135.000
2023-08-09,444594.000
2023-08-30,470800.000
2023-09-20,640296.000
2023-10-11,709160.000
2023-11-01,820487.000
2023-11-22,706017.000
2023-12-13,658440.000
2024-01-03,758448.000
2024-01-24,799358.000
2024-02-14,838005.000
2024-03-06,767733.000
2024-03-27,802233.000
2024-04-17,796535.000
2024-05-08,851591.000
2024-05-29,704335.000
2024-06-19,723410.000
2024-07-10,736402.000
2024-07-31,786486.000
2024-08-21,736494.000
2024-09-11,755958.000
2024-10-02,798277.000
2024-10-23,829991.000
2024-11-13,832186.000
2024-12-04,789516.000
2024-12-25,764770.000
2025-01-15,641225.000
2025-02-05,805593.000
2025-02-26,681161.000
2025-03-19,435936.000
2025-04-09,306049.000
2025-04-30,595741.000
2025-05-21,503055.000
2025-06-11,332907.000
2025-07-02,359516.000
2025-07-23,323176.000
2025-08-13,504304.000
2025-09-03,597513.000
2025-09-24,804856.000
2025-10-15,809593.000
2025-11-05,940979.000
2025-11-12,953816.000